Folder: FP-ws-2022/V44/data

File: gaussdetektorscan0.UXD
; E:\FP\gaussdetektorscan0.raw(Diffrac Plus V1.01 file) converted by XCH V1.0
_FILEVERSION=2
_SITE='Deutschland'
_USER='Administrator'
_GONIOMETER_CODE=4885
; D8 Theta/Theta; Special
_SAMPLE_CHANGER_CODE=0
_ATTACHMENTS_CODE=0
_GONIOMETER_RADIUS=350
_FIXED_DIVSLIT=0.600000
_FIXED_SAMPLESLIT=0.000000
_FIXED_DETSLIT=11.66
_MONOCHROMATOR=0
; None
_THIN_FILM='N'
_BETA_FILTER='Y'
_FIXED_ANTISLIT=8.340000
_ANALYZER_CODE=0
; None
_DATEMEASURED='07-Nov-2022 10:55:39'
_WL_UNIT='A'
_WL1=1.540600
_WL2=1.544390
_WL3=1.392220
_WLRATIO=0.500000
_ANODE='Cu'
; (Data for Range number 1)
_DRIVE='2THETA'
_STEPTIME=0.999980
_STEPSIZE=0.020000
_STEPMODE='C'
_START=-0.500000
_THETA=0.000000
_2THETA=-0.500000
_KHI=0.000000
_PHI=92.46
_X=4.000000
_Y=-1.000000
_Z=-10
_DIVERGENCE=0.000000
_ANTISCATTER=0.000000
_DETECTOR=5
_DETECTORSLIT='unkn'
_AUX1=0.000000
_AUX2=0.000000
_AUX3=0.000000
_TIMESTARTED=3.000000
_TEMP_RATE=-1.000000
_TEMP_DELAY=-1.000000
_KV=40
_MA=35
_RANGE_WL=1.540600
_3DPLANE=0
_GONIOMETER=-0.509400
_PSDCHANNEL0=0
_2THETACOUNTS
  -0.5000       126
  -0.4800       166
  -0.4600       227
  -0.4400       293
  -0.4200       382
  -0.4000       511
  -0.3800       761
  -0.3600       972
  -0.3400      1243
  -0.3200      1560
  -0.3000      1984
  -0.2800      2391
  -0.2600      3153
  -0.2400      4168
  -0.2200      5526
  -0.2000      7126
  -0.1800     10352
  -0.1600     15066
  -0.1400     22767
  -0.1200     36648
  -0.1000     64910
  -0.0800    128899
  -0.0600    240737
  -0.0400    434942
  -0.0200    634568
   0.0000    710123
   0.0200    626549
   0.0400    423559
   0.0600    242751
   0.0800    144110
   0.1000     86713
   0.1200     56607
   0.1400     36968
   0.1600     26376
   0.1800     19245
   0.2000     13528
   0.2200      9686
   0.2400      7345
   0.2600      5516
   0.2800      4105
   0.3000      2710
   0.3200      1657
   0.3400       794
   0.3600       389
   0.3800       140
   0.4000       110
   0.4200        92
   0.4400        76
   0.4600        69
   0.4800        71
   0.5000        64

File: messung1.UXD
; E:\FP\messung1.raw(Diffrac Plus V1.01 file) converted by XCH V1.0
_FILEVERSION=2
_SITE='Deutschland'
_USER='Administrator'
_GONIOMETER_CODE=4885
; D8 Theta/Theta; Special
_SAMPLE_CHANGER_CODE=0
_ATTACHMENTS_CODE=0
_GONIOMETER_RADIUS=350
_FIXED_DIVSLIT=0.600000
_FIXED_SAMPLESLIT=0.000000
_FIXED_DETSLIT=11.66
_MONOCHROMATOR=0
; None
_THIN_FILM='N'
_BETA_FILTER='Y'
_FIXED_ANTISLIT=8.340000
_ANALYZER_CODE=0
; None
_DATEMEASURED='07-Nov-2022 11:25:05'
_WL_UNIT='A'
_WL1=1.540600
_WL2=1.544390
_WL3=1.392220
_WLRATIO=0.500000
_ANODE='Cu'
; (Data for Range number 1)
_DRIVE='THETA'
_STEPTIME=5.000660
_STEPSIZE=0.005000
_STEPMODE='C'
_START=0.000000
_THETA=0.000000
_2THETA=0.000000
_KHI=0.000000
_PHI=92.46
_X=0.000000
_Y=-1.000000
_Z=0.204000
_DIVERGENCE=0.000000
_ANTISCATTER=0.000000
_DETECTOR=5
_DETECTORSLIT='unkn'
_AUX1=0.000000
_AUX2=0.000000
_AUX3=0.000000
_TIMESTARTED=2.000000
_TEMP_RATE=-1.000000
_TEMP_DELAY=-1.000000
_KV=40
_MA=35
_RANGE_WL=1.540600
_3DPLANE=0
_GONIOMETER=-0.002500
_PSDCHANNEL0=0
_2THETACOUNTS
   0.0000   1940630
   0.0100   2500710
   0.0200   2416070
   0.0300   1663700
   0.0400   1208490
   0.0500   1045870
   0.0600   1021440
   0.0700   1031270
   0.0800   1093690
   0.0900   1173790
   0.1000   1251730
   0.1100   1334640
   0.1200   1417000
   0.1300   1508760
   0.1400   1590830
   0.1500   1623230
   0.1600   1647170
   0.1700   1678710
   0.1800   1737780
   0.1900   1791390
   0.2000   1769160
   0.2100   1598700
   0.2200   1233450
   0.2300    752009
   0.2400    428242
   0.2500    255108
   0.2600    197460
   0.2700    143799
   0.2800     88032
   0.2900     64308
   0.3000     66168
   0.3100     61443
   0.3200     42706
   0.3300     28072
   0.3400     26893
   0.3500     30417
   0.3600     27524
   0.3700     18708
   0.3800     12754
   0.3900     13603
   0.4000     16024
   0.4100     14019
   0.4200      9541
   0.4300      6736
   0.4400      7619
   0.4500      9131
   0.4600      8246
   0.4700      5593
   0.4800      4064
   0.4900      4496
   0.5000      5574
   0.5100      5162
   0.5200      3558
   0.5300      2521
   0.5400      2786
   0.5500      3403
   0.5600      3289
   0.5700      2359
   0.5800      1618
   0.5900      1793
   0.6000      2232
   0.6100      2254
   0.6200      1741
   0.6300      1145
   0.6400      1051
   0.6500      1325
   0.6600      1499
   0.6700      1227
   0.6800       799
   0.6900       702
   0.7000       910
   0.7100      1033
   0.7200       921
   0.7300       621
   0.7400       484
   0.7500       600
   0.7600       662
   0.7700       676
   0.7800       471
   0.7900       357
   0.8000       364
   0.8100       555
   0.8200       496
   0.8300       391
   0.8400       281
   0.8500       268
   0.8600       339
   0.8700       383
   0.8800       322
   0.8900       213
   0.9000       205
   0.9100       209
   0.9200       262
   0.9300       216
   0.9400       178
   0.9500       138
   0.9600       162
   0.9700       182
   0.9800       180
   0.9900       158
   1.0000        68
   1.0100       108
   1.0200       110
   1.0300       143
   1.0400       132
   1.0500        94
   1.0600        72
   1.0700        91
   1.0800       106
   1.0900       105
   1.1000        68
   1.1100        44
   1.1200        82
   1.1300        87
   1.1400        78
   1.1500        56
   1.1600        52
   1.1700        50
   1.1800        62
   1.1900        72
   1.2000        52
   1.2100        42
   1.2200        37
   1.2300        50
   1.2400        48
   1.2500        36
   1.2600        23
   1.2700        29
   1.2800        21
   1.2900        38
   1.3000        31
   1.3100        28
   1.3200        24
   1.3300        23
   1.3400        24
   1.3500        25
   1.3600        22
   1.3700        14
   1.3800        12
   1.3900        21
   1.4000        17
   1.4100        13
   1.4200        12
   1.4300         5
   1.4400        13
   1.4500        14
   1.4600        17
   1.4700        10
   1.4800        16
   1.4900        12
   1.5000        14
   1.5100        19
   1.5200         7
   1.5300         7
   1.5400        11
   1.5500        10
   1.5600         5
   1.5700         7
   1.5800         6
   1.5900         7
   1.6000         5
   1.6100         8
   1.6200         5
   1.6300         3
   1.6400         7
   1.6500         9
   1.6600         8
   1.6700         8
   1.6800        10
   1.6900         7
   1.7000        10
   1.7100         4
   1.7200         5
   1.7300         4
   1.7400         1
   1.7500         5
   1.7600         4
   1.7700         3
   1.7800         5
   1.7900         4
   1.8000         2
   1.8100         3
   1.8200         3
   1.8300         5
   1.8400         4
   1.8500         2
   1.8600         2
   1.8700         8
   1.8800         4
   1.8900         1
   1.9000         4
   1.9100         1
   1.9200         1
   1.9300         1
   1.9400         3
   1.9500         2
   1.9600         4
   1.9700         2
   1.9800         2
   1.9900         1
   2.0000         1
   2.0100         2
   2.0200         0
   2.0300         0
   2.0400         2
   2.0500         0
   2.0600         2
   2.0700         0
   2.0800         1
   2.0900         0
   2.1000         2
   2.1100         1
   2.1200         2
   2.1300         0
   2.1400         1
   2.1500         1
   2.1600         3
   2.1700         4
   2.1800         0
   2.1900         0
   2.2000         2
   2.2100         0
   2.2200         0
   2.2300         1
   2.2400         1
   2.2500         2
   2.2600         0
   2.2700         2
   2.2800         2
   2.2900         1
   2.3000         0
   2.3100         1
   2.3200         0
   2.3300         0
   2.3400         1
   2.3500         2
   2.3600         1
   2.3700         0
   2.3800         0
   2.3900         1
   2.4000         0
   2.4100         3
   2.4200         0
   2.4300         1
   2.4400         0
   2.4500         4
   2.4600         1
   2.4700         2
   2.4800         0
   2.4900         0
   2.5000         0

File: messung2.UXD
; E:\FP\messung2.raw(Diffrac Plus V1.01 file) converted by XCH V1.0
_FILEVERSION=2
_SITE='Deutschland'
_USER='Administrator'
_GONIOMETER_CODE=4885
; D8 Theta/Theta; Special
_SAMPLE_CHANGER_CODE=0
_ATTACHMENTS_CODE=0
_GONIOMETER_RADIUS=350
_FIXED_DIVSLIT=0.600000
_FIXED_SAMPLESLIT=0.000000
_FIXED_DETSLIT=11.66
_MONOCHROMATOR=0
; None
_THIN_FILM='N'
_BETA_FILTER='Y'
_FIXED_ANTISLIT=8.340000
_ANALYZER_CODE=0
; None
_DATEMEASURED='07-Nov-2022 12:42:13'
_WL_UNIT='A'
_WL1=1.540600
_WL2=1.544390
_WL3=1.392220
_WLRATIO=0.500000
_ANODE='Cu'
; (Data for Range number 1)
_DRIVE='THETA'
_STEPTIME=5.000660
_STEPSIZE=0.005000
_STEPMODE='C'
_START=0.000000
_THETA=0.000000
_2THETA=0.100000
_KHI=0.000000
_PHI=92.46
_X=0.000000
_Y=-1.000000
_Z=0.204000
_DIVERGENCE=0.000000
_ANTISCATTER=0.000000
_DETECTOR=5
_DETECTORSLIT='unkn'
_AUX1=0.000000
_AUX2=0.000000
_AUX3=0.000000
_TIMESTARTED=3.000000
_TEMP_RATE=-1.000000
_TEMP_DELAY=-1.000000
_KV=40
_MA=35
_RANGE_WL=1.540600
_3DPLANE=0
_GONIOMETER=0.097500
_PSDCHANNEL0=0
_2THETACOUNTS
   0.0000    417322
   0.0100    287900
   0.0200    192555
   0.0300    148656
   0.0400    119890
   0.0500     96771
   0.0600     84135
   0.0700     80849
   0.0800     77730
   0.0900     76269
   0.1000     68148
   0.1100     60518
   0.1200     48754
   0.1300     40324
   0.1400     32697
   0.1500     26154
   0.1600     21988
   0.1700     19127
   0.1800     16401
   0.1900     14207
   0.2000     11797
   0.2100      8987
   0.2200      6158
   0.2300      3868
   0.2400      2474
   0.2500      1766
   0.2600      1338
   0.2700      1033
   0.2800       808
   0.2900       688
   0.3000       536
   0.3100       444
   0.3200       381
   0.3300       356
   0.3400       302
   0.3500       292
   0.3600       286
   0.3700       237
   0.3800       195
   0.3900       203
   0.4000       195
   0.4100       154
   0.4200       125
   0.4300       127
   0.4400       144
   0.4500       132
   0.4600       116
   0.4700       107
   0.4800       117
   0.4900        99
   0.5000        91
   0.5100        99
   0.5200        90
   0.5300        69
   0.5400        91
   0.5500        75
   0.5600        91
   0.5700        77
   0.5800        62
   0.5900        60
   0.6000        78
   0.6100        65
   0.6200        53
   0.6300        55
   0.6400        47
   0.6500        57
   0.6600        60
   0.6700        54
   0.6800        43
   0.6900        40
   0.7000        45
   0.7100        46
   0.7200        44
   0.7300        37
   0.7400        45
   0.7500        34
   0.7600        34
   0.7700        50
   0.7800        37
   0.7900        27
   0.8000        29
   0.8100        28
   0.8200        25
   0.8300        24
   0.8400        22
   0.8500        21
   0.8600        22
   0.8700        23
   0.8800        32
   0.8900        14
   0.9000        18
   0.9100        18
   0.9200        19
   0.9300        14
   0.9400         7
   0.9500        15
   0.9600        19
   0.9700        15
   0.9800        17
   0.9900        11
   1.0000        14
   1.0100         6
   1.0200         9
   1.0300         8
   1.0400         9
   1.0500        12
   1.0600         7
   1.0700         3
   1.0800         8
   1.0900         5
   1.1000         8
   1.1100         6
   1.1200         6
   1.1300         8
   1.1400         8
   1.1500         5
   1.1600         6
   1.1700         7
   1.1800         4
   1.1900        10
   1.2000         6
   1.2100         1
   1.2200         3
   1.2300         4
   1.2400         5
   1.2500         3
   1.2600         4
   1.2700         3
   1.2800         0
   1.2900         3
   1.3000         3
   1.3100         2
   1.3200         4
   1.3300         0
   1.3400         2
   1.3500         2
   1.3600         5
   1.3700         2
   1.3800         4
   1.3900         1
   1.4000         2
   1.4100         3
   1.4200         1
   1.4300         1
   1.4400         5
   1.4500         2
   1.4600         3
   1.4700         4
   1.4800         1
   1.4900         2
   1.5000         1
   1.5100         2
   1.5200         2
   1.5300         2
   1.5400         3
   1.5500         2
   1.5600         2
   1.5700         2
   1.5800         2
   1.5900         1
   1.6000         2
   1.6100         2
   1.6200         0
   1.6300         3
   1.6400         0
   1.6500         0
   1.6600         0
   1.6700         2
   1.6800         0
   1.6900         0
   1.7000         1
   1.7100         0
   1.7200         2
   1.7300         3
   1.7400         0
   1.7500         0
   1.7600         0
   1.7700         2
   1.7800         0
   1.7900         0
   1.8000         1
   1.8100         0
   1.8200         3
   1.8300         0
   1.8400         2
   1.8500         0
   1.8600         0
   1.8700         0
   1.8800         0
   1.8900         0
   1.9000         0
   1.9100         0
   1.9200         0
   1.9300         1
   1.9400         0
   1.9500         1
   1.9600         0
   1.9700         0
   1.9800         0
   1.9900         0
   2.0000         1
   2.0100         0
   2.0200         0
   2.0300         0
   2.0400         1
   2.0500         1
   2.0600         0
   2.0700         0
   2.0800         0
   2.0900         2
   2.1000         1
   2.1100         0
   2.1200         0
   2.1300         0
   2.1400         0
   2.1500         0
   2.1600         0
   2.1700         0
   2.1800         0
   2.1900         0
   2.2000         0
   2.2100         2
   2.2200         1
   2.2300         0
   2.2400         0
   2.2500         0
   2.2600         0
   2.2700         0
   2.2800         0
   2.2900         1
   2.3000         0
   2.3100         0
   2.3200         0
   2.3300         0
   2.3400         0
   2.3500         0
   2.3600         0
   2.3700         1
   2.3800         0
   2.3900         0
   2.4000         0
   2.4100         0
   2.4200         1
   2.4300         0
   2.4400         0
   2.4500         0
   2.4600         0
   2.4700         0
   2.4800         1
   2.4900         0
   2.5000         0

File: rocking0.UXD
; E:\FP\rocking0.raw(Diffrac Plus V1.01 file) converted by XCH V1.0
_FILEVERSION=2
_SITE='Deutschland'
_USER='Administrator'
_GONIOMETER_CODE=4885
; D8 Theta/Theta; Special
_SAMPLE_CHANGER_CODE=0
_ATTACHMENTS_CODE=0
_GONIOMETER_RADIUS=350
_FIXED_DIVSLIT=0.600000
_FIXED_SAMPLESLIT=0.000000
_FIXED_DETSLIT=11.66
_MONOCHROMATOR=0
; None
_THIN_FILM='N'
_BETA_FILTER='Y'
_FIXED_ANTISLIT=8.340000
_ANALYZER_CODE=0
; None
_DATEMEASURED='07-Nov-2022 11:09:15'
_WL_UNIT='A'
_WL1=1.540600
_WL2=1.544390
_WL3=1.392220
_WLRATIO=0.500000
_ANODE='Cu'
; (Data for Range number 1)
_DRIVE='THETA'
_STEPTIME=1.000010
_STEPSIZE=0.030000
_STEPMODE='C'
_START=-0.500000
_THETA=-0.500000
_2THETA=0.000000
_KHI=0.000000
_PHI=92.46
_X=0.000000
_Y=-1.000000
_Z=0.193000
_DIVERGENCE=0.000000
_ANTISCATTER=0.000000
_DETECTOR=5
_DETECTORSLIT='unkn'
_AUX1=0.000000
_AUX2=0.000000
_AUX3=0.000000
_TIMESTARTED=3.000000
_TEMP_RATE=-1.000000
_TEMP_DELAY=-1.000000
_KV=40
_MA=35
_RANGE_WL=1.540600
_3DPLANE=0
_GONIOMETER=0.000000
_PSDCHANNEL0=0
_2THETACOUNTS
  -0.5000       293
  -0.4700      2278
  -0.4400      7929
  -0.4100     17907
  -0.3800     32421
  -0.3500     50133
  -0.3200     71857
  -0.2900     98441
  -0.2600    128862
  -0.2300    162534
  -0.2000    199303
  -0.1700    224020
  -0.1400    265472
  -0.1100    306852
  -0.0800    346660
  -0.0500    383782
  -0.0200    421781
   0.0100    431095
   0.0400    384414
   0.0700    345625
   0.1000    306054
   0.1300    268031
   0.1600    227970
   0.1900    191670
   0.2200    155243
   0.2500    133161
   0.2800    101520
   0.3100     74959
   0.3400     52416
   0.3700     32992
   0.4000     18463
   0.4300      8137
   0.4600      2344
   0.4900       220

File: rocking1.UXD
; E:\FP\rocking1.raw(Diffrac Plus V1.01 file) converted by XCH V1.0
_FILEVERSION=2
_SITE='Deutschland'
_USER='Administrator'
_GONIOMETER_CODE=4885
; D8 Theta/Theta; Special
_SAMPLE_CHANGER_CODE=0
_ATTACHMENTS_CODE=0
_GONIOMETER_RADIUS=350
_FIXED_DIVSLIT=0.600000
_FIXED_SAMPLESLIT=0.000000
_FIXED_DETSLIT=11.66
_MONOCHROMATOR=0
; None
_THIN_FILM='N'
_BETA_FILTER='Y'
_FIXED_ANTISLIT=8.340000
_ANALYZER_CODE=0
; None
_DATEMEASURED='07-Nov-2022 11:15:25'
_WL_UNIT='A'
_WL1=1.540600
_WL2=1.544390
_WL3=1.392220
_WLRATIO=0.500000
_ANODE='Cu'
; (Data for Range number 1)
_DRIVE='THETA'
_STEPTIME=0.299990
_STEPSIZE=0.005000
_STEPMODE='C'
_START=0.000000
_THETA=0.000000
_2THETA=0.300000
_KHI=0.000000
_PHI=92.46
_X=0.000000
_Y=-1.000000
_Z=0.204000
_DIVERGENCE=0.000000
_ANTISCATTER=0.000000
_DETECTOR=5
_DETECTORSLIT='unkn'
_AUX1=0.000000
_AUX2=0.000000
_AUX3=0.000000
_TIMESTARTED=2.000000
_TEMP_RATE=-1.000000
_TEMP_DELAY=-1.000000
_KV=40
_MA=35
_RANGE_WL=1.540600
_3DPLANE=0
_GONIOMETER=0.300000
_PSDCHANNEL0=0
_2THETACOUNTS
   0.0000       809
   0.0050       818
   0.0100       848
   0.0150       901
   0.0200       826
   0.0250       862
   0.0300       894
   0.0350       839
   0.0400       819
   0.0450       957
   0.0500       975
   0.0550      1035
   0.0600      1148
   0.0650      1212
   0.0700      1237
   0.0750      1462
   0.0800      1711
   0.0850      1983
   0.0900      2330
   0.0950      2817
   0.1000      3331
   0.1050      3938
   0.1100      4861
   0.1150      5993
   0.1200      7367
   0.1250     11713
   0.1300     24216
   0.1350     46005
   0.1400     75406
   0.1450     86339
   0.1500     96364
   0.1550     95803
   0.1600     91269
   0.1650     76306
   0.1700     53214
   0.1750     30517
   0.1800     17395
   0.1850      9527
   0.1900      6757
   0.1950      5267
   0.2000      4230
   0.2050      3430
   0.2100      2808
   0.2150      2285
   0.2200      1938
   0.2250      1614
   0.2300      1422
   0.2350      1258
   0.2400      1144
   0.2450      1008
   0.2500       983
   0.2550       919
   0.2600       921
   0.2650       962
   0.2700       931
   0.2750       865
   0.2800       825
   0.2850       801
   0.2900       820
   0.2950       788
   0.3000       782

File: xscan0.UXD
; E:\FP\xscan0.raw(Diffrac Plus V1.01 file) converted by XCH V1.0
_FILEVERSION=2
_SITE='Deutschland'
_USER='Administrator'
_GONIOMETER_CODE=4885
; D8 Theta/Theta; Special
_SAMPLE_CHANGER_CODE=0
_ATTACHMENTS_CODE=0
_GONIOMETER_RADIUS=350
_FIXED_DIVSLIT=0.600000
_FIXED_SAMPLESLIT=0.000000
_FIXED_DETSLIT=11.66
_MONOCHROMATOR=0
; None
_THIN_FILM='N'
_BETA_FILTER='Y'
_FIXED_ANTISLIT=8.340000
_ANALYZER_CODE=0
; None
_DATEMEASURED='07-Nov-2022 11:03:03'
_WL_UNIT='A'
_WL1=1.540600
_WL2=1.544390
_WL3=1.392220
_WLRATIO=0.500000
_ANODE='Cu'
; (Data for Range number 1)
_DRIVE='X'
_STEPTIME=1.000000
_STEPSIZE=1.000000
_STEPMODE='S'
_START=-20
_THETA=0.000000
_2THETA=0.000000
_KHI=0.000000
_PHI=92.46
_X=-20
_Y=-1.000000
_Z=0.193000
_DIVERGENCE=0.000000
_ANTISCATTER=0.000000
_DETECTOR=5
_DETECTORSLIT='unkn'
_AUX1=0.000000
_AUX2=0.000000
_AUX3=0.000000
_TIMESTARTED=4.000000
_TEMP_RATE=-1.000000
_TEMP_DELAY=-1.000000
_KV=40
_MA=35
_RANGE_WL=1.540600
_3DPLANE=0
_GONIOMETER=0.000000
_PSDCHANNEL0=0
_2THETACOUNTS
 -20.0000    727551
 -19.0000    727124
 -18.0000    727503
 -17.0000    726334
 -16.0000    725694
 -15.0000    727211
 -14.0000    727432
 -13.0000    726231
 -12.0000    716957
 -11.0000    585856
 -10.0000    572489
  -9.0000    561184
  -8.0000    549643
  -7.0000    530983
  -6.0000    512686
  -5.0000    500520
  -4.0000    483670
  -3.0000    467277
  -2.0000    449771
  -1.0000    439074
   0.0000    421726
   1.0000    403453
   2.0000    385994
   3.0000    374831
   4.0000    353256
   5.0000    336809
   6.0000    328853
   7.0000    313843
   8.0000    297317
   9.0000    384793
  10.0000    722866
  11.0000    726587
  12.0000    730173
  13.0000    727314
  14.0000    727890
  15.0000    727961
  16.0000    727859
  17.0000    729589
  18.0000    725813
  19.0000    726958
  20.0000    725299